Wavelength (nm)	L03 abs e
220.00	17396
220.25	16823
220.50	16357
220.75	15675
221.00	15333
221.25	14847
221.50	14335
221.75	13910
222.00	13377
222.25	13262
222.50	12771
222.75	12439
223.00	12110
223.25	11763
223.50	11361
223.75	11186
224.00	10859
224.25	10634
224.50	10472
224.75	10295
225.00	9915.7
225.25	9847.4
225.50	9652.7
225.75	9491.7
226.00	9314.1
226.25	9195.1
226.50	8985.3
226.75	9007.2
227.00	8818.7
227.25	8636.3
227.50	8597.2
227.75	8419.1
228.00	8459.9
228.25	8327.6
228.50	8237.3
228.75	8305.6
229.00	8144.5
229.25	8148.2
229.50	8090.2
229.75	8110.3
230.00	7900.5
230.25	7902.9
230.50	7971.9
230.75	7935.9
231.00	7872.4
231.25	7850.4
231.50	7805.9
231.75	7705.2
232.00	7760.1
232.25	7762.0
232.50	7818.7
232.75	7807.1
233.00	7762.0
233.25	7793.1
233.50	7874.8
233.75	7912.1
234.00	7885.2
234.25	7895.6
234.50	7972.5
234.75	8024.9
235.00	8047.5
235.25	8107.9
235.50	8235.4
235.75	8361.7
236.00	8388.0
236.25	8405.0
236.50	8513.0
236.75	8539.3
237.00	8718.6
237.25	8843.7
237.50	8920.6
237.75	9040.8
238.00	9101.8
238.25	9217.1
238.50	9321.4
238.75	9518.5
239.00	9642.4
239.25	9686.9
239.50	9871.2
239.75	10022
240.00	10111
240.25	10409
240.50	10498
240.75	10539
241.00	10760
241.25	11008
241.50	10975
241.75	11307
242.00	11428
242.25	11514
242.50	11655
242.75	11783
243.00	12132
243.25	12228
243.50	12407
243.75	12542
244.00	12689
244.25	12720
244.50	13034
244.75	13194
245.00	13225
245.25	13355
245.50	13575
245.75	13656
246.00	13828
246.25	13871
246.50	13985
246.75	14116
247.00	14287
247.25	14452
247.50	14546
247.75	14597
248.00	14638
248.25	14657
248.50	14739
248.75	14572
249.00	14808
249.25	14634
249.50	14742
249.75	14672
250.00	14636
250.25	14676
250.50	14622
250.75	14464
251.00	14589
251.25	14298
251.50	14284
251.75	14188
252.00	14008
252.25	13902
252.50	13670
252.75	13673
253.00	13535
253.25	13379
253.50	13199
253.75	13105
254.00	12905
254.25	12871
254.50	12812
254.75	12550
255.00	12389
255.25	12407
255.50	12130
255.75	12044
256.00	11837
256.25	11712
256.50	11440
256.75	11395
257.00	11223
257.25	11129
257.50	10892
257.75	10627
258.00	10619
258.25	10426
258.50	10436
258.75	10382
259.00	10081
259.25	9956.0
259.50	9784.5
259.75	9785.7
260.00	9641.8
260.25	9370.2
260.50	9393.4
260.75	9222.0
261.00	9164.6
261.25	8954.8
261.50	8937.1
261.75	8915.7
262.00	8762.0
262.25	8584.4
262.50	8641.8
262.75	8580.1
263.00	8512.4
263.25	8438.0
263.50	8253.7
263.75	8233.6
264.00	8176.2
264.25	8076.8
264.50	7967.0
264.75	7843.1
265.00	7898.0
265.25	7805.3
265.50	7726.6
265.75	7627.1
266.00	7826.0
266.25	7680.2
266.50	7550.3
266.75	7674.1
267.00	7545.4
267.25	7557.0
267.50	7232.4
267.75	7312.3
268.00	7311.1
268.25	7267.8
268.50	7276.3
268.75	7258.6
269.00	7223.8
269.25	7129.9
269.50	7187.8
269.75	7036.5
270.00	7114.0
270.25	7068.3
270.50	6979.8
270.75	7086.0
271.00	6958.4
271.25	6938.9
271.50	7029.2
271.75	6957.2
272.00	6957.8
272.25	6974.9
272.50	6857.2
272.75	6961.5
273.00	6915.1
273.25	6843.1
273.50	6881.0
273.75	6970.0
274.00	6857.2
274.25	6906.6
274.50	6983.5
274.75	7029.8
275.00	6942.6
275.25	7052.4
275.50	6957.8
275.75	6966.4
276.00	7037.1
276.25	7007.2
276.50	7056.1
276.75	7093.3
277.00	7114.0
277.25	7214.1
277.50	7243.4
277.75	7205.5
278.00	7317.2
278.25	7342.2
278.50	7344.6
278.75	7388.0
279.00	7542.9
279.25	7591.1
279.50	7561.8
279.75	7646.0
280.00	7666.8
280.25	7775.4
280.50	7730.9
280.75	7794.9
281.00	7850.4
281.25	7954.2
281.50	8004.2
281.75	8103.6
282.00	8121.9
282.25	8094.5
282.50	8227.5
282.75	8430.1
283.00	8444.7
283.25	8527.7
283.50	8582.0
283.75	8583.2
284.00	8718.6
284.25	8932.2
284.50	8873.0
284.75	9001.7
285.00	9013.3
285.25	8954.1
285.50	9104.2
285.75	9490.4
286.00	9427.6
286.25	9572.2
286.50	9622.8
286.75	9823.6
287.00	9940.1
287.25	10062
287.50	10216
287.75	10332
288.00	10329
288.25	10511
288.50	10597
288.75	10660
289.00	10828
289.25	10977
289.50	11128
289.75	11231
290.00	11313
290.25	11500
290.50	11642
290.75	11903
291.00	11946
291.25	12040
291.50	12245
291.75	12245
292.00	12575
292.25	12709
292.50	12957
292.75	13129
293.00	13363
293.25	13455
293.50	13511
293.75	13630
294.00	13855
294.25	13881
294.50	14029
294.75	14115
295.00	14214
295.25	14267
295.50	14421
295.75	14740
296.00	14753
296.25	14989
296.50	15158
296.75	15343
297.00	15411
297.25	15427
297.50	15710
297.75	15733
298.00	16115
298.25	16030
298.50	16158
298.75	16293
299.00	16505
299.25	16553
299.50	16698
299.75	16645
300.00	16813
300.25	16930
300.50	16940
300.75	16935
301.00	17008
301.25	16991
301.50	17151
301.75	17174
302.00	17177
302.25	17155
302.50	17291
302.75	17167
303.00	17322
303.25	17249
303.50	17194
303.75	17116
304.00	17067
304.25	17044
304.50	16872
304.75	16809
305.00	16881
305.25	16827
305.50	16806
305.75	16603
306.00	16562
306.25	16358
306.50	16213
306.75	16127
307.00	15902
307.25	15644
307.50	15459
307.75	15452
308.00	15133
308.25	14974
308.50	14913
308.75	14517
309.00	14341
309.25	14112
309.50	13914
309.75	13728
310.00	13516
310.25	12844
310.50	13427
310.75	13099
311.00	12345
311.25	12529
311.50	12648
311.75	12018
312.00	11487
312.25	11262
312.50	11352
312.75	10811
313.00	10902
313.25	10349
313.50	10404
313.75	9937.1
314.00	10002
314.25	9579.5
314.50	9533.8
314.75	9045.7
315.00	8730.8
315.25	8506.3
315.50	8564.3
315.75	8349.5
316.00	8040.8
316.25	7804.7
316.50	7737.0
316.75	7635.1
317.00	7071.3
317.25	7078.6
317.50	6840.1
317.75	6506.9
318.00	6829.1
318.25	6446.5
318.50	6400.8
318.75	6589.3
319.00	6053.0
319.25	5846.2
319.50	5860.8
319.75	5533.8
320.00	5652.2
320.25	5776.0
320.50	5591.8
320.75	5179.9
321.00	5330.0
321.25	5378.8
321.50	5106.7
321.75	5073.8
322.00	5215.9
322.25	4826.1
322.50	4353.2
322.75	4633.3
323.00	4731.5
323.25	4272.1
323.50	4291.0
323.75	4596.0
324.00	4330.0
324.25	3877.9
324.50	4031.7
324.75	4059.1
325.00	3769.9
325.25	3730.9
325.50	4076.2
325.75	3818.8
326.00	3490.5
326.25	3628.4
326.50	3223.9
326.75	3333.7
327.00	3378.2
327.25	3333.1
327.50	2967.0
327.75	3610.1
328.00	3599.7
328.25	3292.2
328.50	3189.7
328.75	3312.4
329.00	3108.6
329.25	3023.8
329.50	2809.6
329.75	3307.5
330.00	2945.7
330.25	3029.3
330.50	3164.7
330.75	2923.1
331.00	2838.3
331.25	2843.2
331.50	2818.8
331.75	2707.1
332.00	2719.9
332.25	2816.9
332.50	2826.7
332.75	2400.8
333.00	2438.0
333.25	2618.6
333.50	2747.4
333.75	2475.3
334.00	2469.8
334.25	2294.7
334.50	2588.7
334.75	2275.8
335.00	2334.9
335.25	2027.4
335.50	2015.2
335.75	2106.8
336.00	2450.2
336.25	2307.5
336.50	2275.8
336.75	2237.9
337.00	1932.9
337.25	2129.9
337.50	2390.5
337.75	2065.9
338.00	1709.6
338.25	1632.7
338.50	1842.6
338.75	1817.6
339.00	1646.7
339.25	1888.3
339.50	1677.8
339.75	1832.2
340.00	1766.9
340.25	1654.6
340.50	1676.6
340.75	1719.9
341.00	1633.9
341.25	1556.4
341.50	1391.1
341.75	1578.4
342.00	1419.8
342.25	1687.6
342.50	1840.7
342.75	1541.8
343.00	1525.9
343.25	1535.7
343.50	1579.0
343.75	1296.5
344.00	1324.6
344.25	1500.9
344.50	1671.7
344.75	1730.9
345.00	1943.2
345.25	1552.1
345.50	1649.2
345.75	1842.0
346.00	1531.4
346.25	1764.5
346.50	1497.8
346.75	1582.7
347.00	1486.9
347.25	1590.0
347.50	1599.7
347.75	1490.5
348.00	1640.0
348.25	1558.3
348.50	1771.8
348.75	1679.7
349.00	1945.7
349.25	1643.1
349.50	1796.2
349.75	1798.6
350.00	1738.2
350.25	1847.4
350.50	2078.1
350.75	1712.6
351.00	1783.4
351.25	1940.2
351.50	1676.6
351.75	1888.3
352.00	1738.8
352.25	1752.3
352.50	1687.6
352.75	1719.9
353.00	1815.7
353.25	1868.2
353.50	1539.9
353.75	1876.1
354.00	1852.9
354.25	1785.8
354.50	2015.2
354.75	1715.1
355.00	1899.9
355.25	1773.0
355.50	2010.4
355.75	1735.2
356.00	1797.4
356.25	1827.3
356.50	1745.6
356.75	1743.7
357.00	1829.1
357.25	1709.0
357.50	1756.5
357.75	1833.4
358.00	1945.7
358.25	1860.9
358.50	2027.4
358.75	1854.8
359.00	1502.7
359.25	1749.2
359.50	1800.5
359.75	1928.0
360.00	1649.2
360.25	1649.2
360.50	1641.8
360.75	1795.0
361.00	1593.6
361.25	1603.4
361.50	1713.8
361.75	1646.7
362.00	1578.4
362.25	1688.2
362.50	1690.0
362.75	1713.8
363.00	1606.5
363.25	1482.0
363.50	1561.3
363.75	1705.9
364.00	1633.3
364.25	1609.5
364.50	1701.6
364.75	1595.5
365.00	1507.0
365.25	1646.1
365.50	1558.3
365.75	1686.4
366.00	1573.5
366.25	1441.7
366.50	1487.5
366.75	1625.4
367.00	1547.9
367.25	1693.1
367.50	1595.5
367.75	1571.7
368.00	1626.0
368.25	1641.8
368.50	1525.9
368.75	1726.6
369.00	1752.3
369.25	1689.4
369.50	1541.8
369.75	1609.5
370.00	1643.7
370.25	1395.3
370.50	1605.8
370.75	1490.5
371.00	1377.0
371.25	1557.0
371.50	1665.0
371.75	1740.7
372.00	1518.6
372.25	1587.5
372.50	1748.6
372.75	1494.2
373.00	1636.3
373.25	1493.0
373.50	1276.4
373.75	1668.1
374.00	1593.0
374.25	1615.6
374.50	1433.2
374.75	1556.4
375.00	1560.1
375.25	1399.0
375.50	1381.9
375.75	1601.0
376.00	1420.4
376.25	1564.4
376.50	1416.1
376.75	1586.9
377.00	1480.2
377.25	1487.5
377.50	1385.6
377.75	1370.9
378.00	1420.4
378.25	1374.6
378.50	1485.6
378.75	1190.3
379.00	1446.0
379.25	1294.7
379.50	1277.6
379.75	1275.8
380.00	1227.6
380.25	1297.1
380.50	1191.6
380.75	1023.8
381.00	1267.8
381.25	1244.0
381.50	954.84
381.75	1142.1
382.00	971.31
382.25	1015.9
382.50	965.21
382.75	975.58
383.00	1084.2
383.25	1005.5
383.50	863.93
383.75	945.69
384.00	1067.1
384.25	995.72
384.50	840.14
384.75	953.62
385.00	909.08
385.25	774.85
385.50	968.26
385.75	764.48
386.00	897.49
386.25	917.62
386.50	994.50
386.75	1112.9
387.00	754.72
387.25	873.08
387.50	896.88
387.75	659.54
388.00	691.88
388.25	615.61
388.50	702.25
388.75	646.12
389.00	658.32
389.25	564.36
389.50	522.26
389.75	779.74
390.00	718.11
390.25	471.62
390.50	664.42
390.75	687.61
391.00	810.85
391.25	602.19
391.50	613.78
391.75	635.14
392.00	780.35
392.25	646.12
392.50	726.65
392.75	601.58
393.00	605.24
393.25	620.49
393.50	608.29
393.75	737.03
394.00	617.44
394.25	823.05
394.50	747.40
394.75	528.37
395.00	716.28
395.25	636.97
395.50	714.45
395.75	587.55
396.00	682.12
396.25	685.17
396.50	650.39
396.75	532.64
397.00	668.08
397.25	713.84
397.50	558.87
397.75	584.50
398.00	535.08
398.25	721.77
398.50	582.67
398.75	773.02
399.00	748.62
399.25	541.18
399.50	708.35
399.75	585.72
400.00	557.65
400.25	800.48
400.50	644.29
400.75	464.30
401.00	664.42
401.25	471.01
401.50	549.72
401.75	696.76
402.00	705.30
402.25	527.76
402.50	600.97
402.75	671.13
403.00	623.54
403.25	594.26
403.50	530.81
403.75	607.68
404.00	628.43
404.25	615.61
404.50	613.78
404.75	752.28
405.00	553.99
405.25	657.71
405.50	585.11
405.75	607.07
406.00	600.97
406.25	600.97
406.50	574.73
406.75	691.88
407.00	667.47
407.25	610.73
407.50	667.47
407.75	724.82
408.00	639.41
408.25	649.78
408.50	588.16
408.75	649.78
409.00	645.51
409.25	554.60
409.50	656.49
409.75	590.60
410.00	668.08
410.25	622.32
410.50	671.13
410.75	618.66
411.00	552.77
411.25	655.27
411.50	733.98
411.75	709.57
412.00	758.38
412.25	475.89
412.50	589.99
412.75	712.62
413.00	801.09
413.25	654.66
413.50	606.46
413.75	525.92
414.00	746.79
414.25	532.64
414.50	593.65
414.75	692.49
415.00	596.09
415.25	788.28
415.50	669.30
415.75	721.77
416.00	816.34
416.25	674.18
416.50	684.56
416.75	737.64
417.00	817.56
417.25	558.26
417.50	556.43
417.75	713.84
418.00	624.76
418.25	774.85
418.50	792.55
418.75	823.66
419.00	777.30
419.25	926.16
419.50	690.05
419.75	831.60
420.00	733.98
420.25	595.48
420.50	743.13
420.75	762.04
421.00	768.75
421.25	746.18
421.50	760.82
421.75	809.02
422.00	650.39
422.25	861.49
422.50	775.46
422.75	793.77
423.00	784.62
423.25	798.65
423.50	894.44
423.75	715.67
424.00	793.16
424.25	886.51
424.50	930.44
424.75	957.28
425.00	976.19
425.25	1022.0
425.50	973.75
425.75	927.38
426.00	957.28
426.25	990.84
426.50	995.72
426.75	816.95
427.00	949.96
427.25	883.46
427.50	1040.9
427.75	996.33
428.00	989.62
428.25	922.50
428.50	862.71
428.75	981.08
429.00	1007.9
429.25	1049.4
429.50	1133.6
429.75	1084.8
430.00	1091.5
430.25	1089.1
430.50	1028.1
430.75	1187.9
431.00	1212.9
431.25	920.67
431.50	1075.0
431.75	1197.7
432.00	1002.4
432.25	1087.2
432.50	1037.2
432.75	1119.6
433.00	1241.6
433.25	1330.1
433.50	1295.3
433.75	1207.4
434.00	1322.1
434.25	1170.2
434.50	1238.5
434.75	1243.4
435.00	1387.4
435.25	1373.4
435.50	1331.9
435.75	1400.2
436.00	1312.4
436.25	1350.8
436.50	1434.4
436.75	1368.5
437.00	1393.5
437.25	1452.1
437.50	1471.6
437.75	1403.3
438.00	1357.5
438.25	1568.6
438.50	1389.9
438.75	1555.2
439.00	1647.9
439.25	1608.3
439.50	1500.9
439.75	1723.0
440.00	1599.1
440.25	1566.2
440.50	1593.0
440.75	1705.9
441.00	1776.7
441.25	1676.0
441.50	1699.8
441.75	1756.5
442.00	1680.3
442.25	1640.0
442.50	1801.7
442.75	1907.9
443.00	1801.1
443.25	1880.4
443.50	1900.5
443.75	1848.1
444.00	1906.6
444.25	1776.1
444.50	2028.0
444.75	1926.2
445.00	2148.8
445.25	1959.7
445.50	2042.1
445.75	1979.8
446.00	2049.4
446.25	1843.8
446.50	2122.0
446.75	2222.1
447.00	2104.9
447.25	2241.0
447.50	2188.5
447.75	2248.9
448.00	2349.0
448.25	2177.5
448.50	2188.5
448.75	2209.3
449.00	2208.0
449.25	2378.9
449.50	2297.7
449.75	2549.1
450.00	2651.0
450.25	2467.9
450.50	2646.1
450.75	2513.1
451.00	2609.5
451.25	2652.2
451.50	2677.2
451.75	2667.5
452.00	2606.4
452.25	2640.0
452.50	2656.5
452.75	2726.6
453.00	2899.9
453.25	2827.9
453.50	2992.0
453.75	2924.3
454.00	3046.9
454.25	3014.0
454.50	2984.7
454.75	3108.0
455.00	3148.8
455.25	3136.6
455.50	3196.4
455.75	3130.5
456.00	3243.4
456.25	3160.4
456.50	3342.9
456.75	3184.2
457.00	3313.6
457.25	3425.2
457.50	3319.1
457.75	3424.6
458.00	3419.1
458.25	3458.8
458.50	3486.2
458.75	3755.9
459.00	3676.6
459.25	3707.1
459.50	3780.3
459.75	3787.0
460.00	3891.4
460.25	3867.6
460.50	3666.8
460.75	3897.5
461.00	3902.9
461.25	4049.4
461.50	3925.5
461.75	4191.5
462.00	4067.1
462.25	4256.8
462.50	4270.9
462.75	4299.5
463.00	4469.8
463.25	4460.0
463.50	4351.4
463.75	4535.6
464.00	4432.5
464.25	4590.6
464.50	4471.6
464.75	4555.2
465.00	4572.9
465.25	4608.2
465.50	4719.9
465.75	4793.1
466.00	4913.3
466.25	4857.2
466.50	5016.4
466.75	4985.9
467.00	5046.3
467.25	5197.0
467.50	5276.9
467.75	5068.9
468.00	5259.2
468.25	5312.3
468.50	5373.3
468.75	5334.3
469.00	5364.8
469.25	5487.4
469.50	5631.4
469.75	5712.0
470.00	5750.4
470.25	5712.6
470.50	5823.0
470.75	5793.7
471.00	5837.0
471.25	6072.5
471.50	6086.6
471.75	6093.9
472.00	6194.6
472.25	6218.4
472.50	6345.3
472.75	6542.9
473.00	6405.7
473.25	6536.2
473.50	6744.3
473.75	6519.8
474.00	6629.0
474.25	6667.4
474.50	6741.8
474.75	6798.0
475.00	7040.2
475.25	7053.6
475.50	7078.6
475.75	7227.5
476.00	7104.9
476.25	7258.0
476.50	7370.9
476.75	7454.5
477.00	7525.2
477.25	7644.8
477.50	7768.7
477.75	7793.1
478.00	7924.3
478.25	7940.7
478.50	7975.5
478.75	7964.5
479.00	8148.8
479.25	8370.9
479.50	8377.0
479.75	8376.4
480.00	8571.6
480.25	8688.7
480.50	8666.8
480.75	8583.8
481.00	8911.4
481.25	8824.2
481.50	8946.2
481.75	8963.9
482.00	9143.3
482.25	9155.5
482.50	9198.2
482.75	9372.1
483.00	9357.4
483.25	9650.9
483.50	9662.5
483.75	9713.7
484.00	9772.9
484.25	9888.2
484.50	10094
484.75	10080
485.00	10130
485.25	10170
485.50	10396
485.75	10505
486.00	10652
486.25	10639
486.50	10637
486.75	10785
487.00	10983
487.25	10887
487.50	11276
487.75	11263
488.00	11249
488.25	11492
488.50	11614
488.75	11591
489.00	11836
489.25	11968
489.50	11995
489.75	12146
490.00	12041
490.25	12301
490.50	12243
490.75	12514
491.00	12508
491.25	12641
491.50	12938
491.75	12997
492.00	13282
492.25	13093
492.50	13305
492.75	13443
493.00	13338
493.25	13628
493.50	13836
493.75	13795
494.00	13855
494.25	13999
494.50	14023
494.75	14287
495.00	14309
495.25	14379
495.50	14842
495.75	14759
496.00	14958
496.25	14942
496.50	14944
496.75	15219
497.00	15412
497.25	15572
497.50	15750
497.75	15692
498.00	15826
498.25	15935
498.50	16057
498.75	16368
499.00	16366
499.25	16725
499.50	16712
499.75	16926
500.00	17151
500.25	17212
500.50	17423
500.75	17578
501.00	17590
501.25	17838
501.50	17880
501.75	17897
502.00	18232
502.25	18440
502.50	18711
502.75	18875
503.00	18969
503.25	19089
503.50	19172
503.75	19444
504.00	19418
504.25	19460
504.50	19765
504.75	20022
505.00	19980
505.25	20275
505.50	20603
505.75	20673
506.00	20814
506.25	21185
506.50	21303
506.75	21415
507.00	21441
507.25	21648
507.50	21881
507.75	22041
508.00	22188
508.25	22501
508.50	22500
508.75	22764
509.00	23077
509.25	23239
509.50	23380
509.75	23524
510.00	23801
510.25	23980
510.50	24336
510.75	24337
511.00	24310
511.25	24564
511.50	24530
511.75	24877
512.00	25117
512.25	25589
512.50	25585
512.75	25847
513.00	26324
513.25	26148
513.50	26559
513.75	26642
514.00	27042
514.25	26911
514.50	27336
514.75	27530
515.00	27647
515.25	28047
515.50	28094
515.75	28500
516.00	28739
516.25	28966
516.50	29231
516.75	29344
517.00	29743
517.25	29759
517.50	29999
517.75	30261
518.00	30467
518.25	30685
518.50	30764
518.75	31143
519.00	31288
519.25	31453
519.50	31800
519.75	31998
520.00	32402
520.25	32509
520.50	32677
520.75	32759
521.00	32966
521.25	33219
521.50	33532
521.75	33635
522.00	33954
522.25	34189
522.50	34451
522.75	34840
523.00	34886
523.25	35032
523.50	35174
523.75	35615
524.00	35604
524.25	35838
524.50	36169
524.75	36200
525.00	36528
525.25	36865
525.50	36828
525.75	37269
526.00	37321
526.25	37761
526.50	37814
526.75	38169
527.00	38394
527.25	38510
527.50	38827
527.75	38835
528.00	39135
528.25	39328
528.50	39693
528.75	39779
529.00	40064
529.25	40285
529.50	40512
529.75	40743
530.00	40722
530.25	41138
530.50	41227
530.75	41522
531.00	41718
531.25	41746
531.50	41924
531.75	42328
532.00	42530
532.25	42554
532.50	42917
532.75	43177
533.00	43305
533.25	43656
533.50	43765
533.75	44076
534.00	43981
534.25	44275
534.50	44153
534.75	44396
535.00	44526
535.25	44574
535.50	44732
535.75	45239
536.00	45332
536.25	45658
536.50	45676
536.75	45912
537.00	45787
537.25	46211
537.50	46281
537.75	46410
538.00	46840
538.25	46766
538.50	46948
538.75	47052
539.00	47179
539.25	47478
539.50	47500
539.75	47611
540.00	47801
540.25	48045
540.50	47926
540.75	48230
541.00	48396
541.25	48395
541.50	48797
541.75	48868
542.00	48935
542.25	49204
542.50	49467
542.75	49356
543.00	49710
543.25	49561
543.50	49682
543.75	49711
544.00	49860
544.25	50007
544.50	50085
544.75	50237
545.00	50302
545.25	50648
545.50	50516
545.75	50650
546.00	50710
546.25	50710
546.50	51173
546.75	51068
547.00	51175
547.25	51310
547.50	51100
547.75	51262
548.00	51270
548.25	51483
548.50	51588
548.75	51664
549.00	51842
549.25	52045
549.50	51973
549.75	51678
550.00	51930
550.25	52051
550.50	52165
550.75	52336
551.00	52485
551.25	52586
551.50	52576
551.75	52523
552.00	52599
552.25	52855
552.50	52827
552.75	52734
553.00	52970
553.25	53009
553.50	53116
553.75	53298
554.00	53163
554.25	53215
554.50	53355
554.75	53617
555.00	53364
555.25	53610
555.50	53686
555.75	53453
556.00	53827
556.25	53892
556.50	53999
556.75	54037
557.00	54223
557.25	54199
557.50	54212
557.75	54472
558.00	54258
558.25	54287
558.50	54456
558.75	54578
559.00	54476
559.25	54879
559.50	54858
559.75	54920
560.00	55187
560.25	55167
560.50	55309
560.75	55247
561.00	55456
561.25	55669
561.50	55625
561.75	55555
562.00	55558
562.25	55952
562.50	55936
562.75	55704
563.00	56270
563.25	56170
563.50	56407
563.75	56627
564.00	56605
564.25	56756
564.50	56860
564.75	57111
565.00	57087
565.25	57270
565.50	57375
565.75	57531
566.00	57435
566.25	57575
566.50	57686
566.75	58291
567.00	58450
567.25	58243
567.50	58538
567.75	58669
568.00	58933
568.25	59185
568.50	59231
568.75	59499
569.00	59548
569.25	59733
569.50	59932
569.75	60015
570.00	60267
570.25	60791
570.50	60658
570.75	61123
571.00	61054
571.25	61537
571.50	61523
571.75	61681
572.00	61993
572.25	62293
572.50	62391
572.75	62627
573.00	62821
573.25	63131
573.50	63246
573.75	63541
574.00	63646
574.25	63857
574.50	63882
574.75	64182
575.00	64175
575.25	64533
575.50	64865
575.75	65073
576.00	65575
576.25	65502
576.50	66053
576.75	66035
577.00	66326
577.25	66730
577.50	66800
577.75	67191
578.00	67249
578.25	67564
578.50	67855
578.75	68263
579.00	68539
579.25	68548
579.50	68908
579.75	69252
580.00	69607
580.25	69684
580.50	69957
580.75	70066
581.00	70438
581.25	70819
581.50	70776
581.75	71190
582.00	71431
582.25	71646
582.50	71912
582.75	72284
583.00	72443
583.25	72705
583.50	72636
583.75	72814
584.00	73141
584.25	73265
584.50	73647
584.75	73584
585.00	73721
585.25	73958
585.50	74163
585.75	74369
586.00	74555
586.25	74432
586.50	74987
586.75	74972
587.00	75041
587.25	74842
587.50	75182
587.75	75216
588.00	75350
588.25	75392
588.50	75533
588.75	75398
589.00	75468
589.25	75499
589.50	75673
589.75	75764
590.00	75637
590.25	75581
590.50	75800
590.75	75540
591.00	75662
591.25	75458
591.50	75549
591.75	75294
592.00	75406
592.25	75459
592.50	75149
592.75	75181
593.00	74888
593.25	74600
593.50	74627
593.75	74440
594.00	74511
594.25	74100
594.50	74193
594.75	73818
595.00	73586
595.25	72955
595.50	72917
595.75	72619
596.00	72248
596.25	72115
596.50	71812
596.75	71671
597.00	71238
597.25	70842
597.50	70360
597.75	70385
598.00	69972
598.25	69529
598.50	69046
598.75	68703
599.00	68522
599.25	68143
599.50	67400
599.75	67231
600.00	66714
600.25	66643
600.50	66008
600.75	65634
601.00	65102
601.25	64546
601.50	64351
601.75	63907
602.00	63285
602.25	62839
602.50	62470
602.75	61964
603.00	61445
603.25	61110
603.50	60433
603.75	59861
604.00	59448
604.25	58920
604.50	58462
604.75	58010
605.00	57544
605.25	56802
605.50	56276
605.75	55712
606.00	54976
606.25	54683
606.50	54145
606.75	53740
607.00	52786
607.25	52419
607.50	51940
607.75	51307
608.00	50741
608.25	50201
608.50	49653
608.75	49148
609.00	48547
609.25	47740
609.50	47312
609.75	46766
610.00	46197
610.25	45655
610.50	44891
610.75	44276
611.00	43943
611.25	43236
611.50	42657
611.75	42160
612.00	41635
612.25	41115
612.50	40710
612.75	40026
613.00	39526
613.25	39024
613.50	38517
613.75	38011
614.00	37527
614.25	37262
614.50	36932
614.75	36284
615.00	35726
615.25	35425
615.50	34808
615.75	34213
616.00	33872
616.25	33189
616.50	32767
616.75	32297
617.00	31809
617.25	31128
617.50	30726
617.75	30195
618.00	29713
618.25	29136
618.50	28737
618.75	28254
619.00	27754
619.25	27266
619.50	26900
619.75	26461
620.00	26099
620.25	25487
620.50	25093
620.75	24680
621.00	24373
621.25	23938
621.50	23331
621.75	22756
622.00	22720
622.25	22072
622.50	21783
622.75	21245
623.00	21200
623.25	20614
623.50	20269
623.75	19841
624.00	19581
624.25	19180
624.50	18910
624.75	18535
625.00	18102
625.25	17966
625.50	17604
625.75	17279
626.00	16946
626.25	16513
626.50	16265
626.75	15880
627.00	15699
627.25	15264
627.50	15177
627.75	14784
628.00	14604
628.25	14308
628.50	13896
628.75	13936
629.00	13466
629.25	13367
629.50	13018
629.75	12811
630.00	12525
630.25	12192
630.50	11990
630.75	11862
631.00	11682
631.25	11221
631.50	11128
631.75	10957
632.00	10559
632.25	10458
632.50	10209
632.75	9994.4
633.00	9966.3
633.25	9790.0
633.50	9574.0
633.75	9214.7
634.00	9188.4
634.25	8923.6
634.50	8831.5
634.75	8630.2
635.00	8324.5
635.25	8172.6
635.50	7863.9
635.75	7808.9
636.00	7449.6
636.25	7448.4
636.50	7376.4
636.75	7147.0
637.00	7037.1
637.25	6848.0
637.50	7123.8
637.75	6749.8
638.00	6649.7
638.25	6375.2
638.50	6255.0
638.75	6212.3
639.00	6118.9
639.25	5979.8
639.50	5683.3
639.75	5762.0
640.00	5333.1
640.25	5392.9
640.50	5288.5
640.75	5367.2
641.00	5196.4
641.25	4908.4
641.50	4896.2
641.75	4865.7
642.00	4996.9
642.25	4661.9
642.50	4352.0
642.75	4522.8
643.00	4400.8
643.25	4439.2
643.50	4083.5
643.75	4084.2
644.00	4068.3
644.25	3868.8
644.50	3892.0
644.75	3740.7
645.00	3723.0
645.25	3767.5
645.50	3653.4
645.75	3561.3
646.00	3319.1
646.25	3424.0
646.50	3276.4
646.75	3270.9
647.00	3079.3
647.25	3144.6
647.50	3045.1
647.75	2870.6
648.00	2877.9
648.25	2651.6
648.50	2854.8
648.75	2773.0
649.00	2618.0
649.25	2718.7
649.50	2579.6
649.75	2616.8
650.00	2358.1
650.25	2425.8
650.50	2413.6
650.75	2373.4
651.00	2198.9
651.25	2165.9
651.50	2037.8
651.75	2083.0
652.00	2066.5
652.25	1940.8
652.50	1902.4
652.75	2129.9
653.00	1932.3
653.25	1948.1
653.50	1785.8
653.75	1935.9
654.00	1755.9
654.25	1830.4
654.50	1712.6
654.75	1741.3
655.00	1611.9
655.25	1650.4
655.50	1506.4
655.75	1272.7
656.00	1582.0
656.25	1469.2
656.50	1336.8
656.75	1403.9
657.00	1427.7
657.25	1337.4
657.50	1357.5
657.75	1377.7
658.00	1230.0
658.25	1354.5
658.50	1248.3
658.75	1251.4
659.00	962.77
659.25	1183.0
659.50	1078.7
659.75	983.52
660.00	1028.7
660.25	1025.6
660.50	862.71
660.75	1061.0
661.00	915.79
661.25	979.86
661.50	851.12
661.75	1068.9
662.00	862.10
662.25	859.05
662.50	909.69
662.75	840.75
663.00	854.78
663.25	721.77
663.50	838.31
663.75	778.52
664.00	829.16
664.25	740.08
664.50	617.44
664.75	806.58
665.00	703.47
665.25	705.91
665.50	589.38
665.75	791.33
666.00	575.95
666.25	588.16
666.50	544.84
666.75	570.46
667.00	519.82
667.25	526.53
667.50	577.79
667.75	485.05
668.00	511.28
668.25	580.23
668.50	532.03
668.75	403.29
669.00	338.01
669.25	547.28
669.50	499.08
669.75	470.40
670.00	499.69
670.25	458.81
670.50	444.78
670.75	430.14
671.00	220.25
671.25	204.39
671.50	377.06
671.75	368.51
672.00	333.13
672.25	366.68
672.50	344.11
672.75	351.43
673.00	395.97
673.25	231.85
673.50	325.80
673.75	471.01
674.00	409.39
674.25	334.35
674.50	338.01
674.75	345.33
675.00	352.65
675.25	263.57
675.50	231.85
675.75	408.17
676.00	246.49
676.25	278.83
676.50	283.10
676.75	154.36
677.00	315.43
677.25	291.64
677.50	381.33
677.75	248.93
678.00	492.37
678.25	278.83
678.50	283.10
678.75	24.405
679.00	92.738
679.25	299.57
679.50	218.42
679.75	170.83
680.00	122.63
680.25	211.71
680.50	236.73
680.75	198.29
681.00	250.76
681.25	153.75
681.50	298.96
681.75	354.48
682.00	209.88
682.25	361.80
682.50	90.908
682.75	186.09
683.00	164.12
683.25	71.384
683.50	301.40
683.75	278.22
684.00	97.009
684.25	30.506
684.50	137.28
684.75	125.69
685.00	177.55
685.25	263.57
685.50	206.22
685.75	350.21
686.00	133.62
686.25	209.27
686.50	183.65
686.75	140.94
687.00	180.60
687.25	116.53
687.50	108.60
687.75	118.36
688.00	285.54
688.25	99.450
688.50	40.268
688.75	53.081
689.00	43.319
689.25	184.26
689.50	247.71
689.75	179.38
690.00	251.98
690.25	247.10
690.50	37.828
690.75	115.31
691.00	90.298
691.25	73.825
691.50	147.65
691.75	78.706
692.00	114.09
692.25	37.217
692.50	119.58
692.75	151.31
693.00	9.1518
693.25	227.58
693.50	76.875
693.75	90.298
694.00	114.09
694.25	219.03
694.50	203.78
694.75	-39.048
695.00	215.37
695.25	69.554
695.50	64.673
695.75	71.994
696.00	47.589
696.25	42.098
696.50	103.72
696.75	88.468
697.00	47.589
697.25	54.301
697.50	-46.369
697.75	-1.8304
698.00	-10.982
698.25	136.06
698.50	159.85
698.75	86.637
699.00	69.554
699.25	-65.283
699.50	101.89
699.75	51.860
700.00	47.589
